# wavelengths (microns) for Laor & Draine (1993)

1.00E+03 9.441E+02 8.913E+02 8.414E+02 7.943E+02 7.499E+02 7.079E+02 6.683E+02 6.310E+02 5.957E+02 5.623E+02 5.309E+02 5.012E+02 4.732E+02 4.467E+02 4.217E+02 3.981E+02 3.758E+02 3.548E+02 3.350E+02 3.162E+02 2.985E+02 2.818E+02 2.661E+02 2.512E+02 2.371E+02 2.239E+02 2.113E+02 1.995E+02 1.884E+02 1.778E+02 1.679E+02 1.585E+02 1.496E+02 1.413E+02 1.334E+02 1.259E+02 1.189E+02 1.122E+02 1.059E+02 1.000E+02 9.441E+01 8.913E+01 8.414E+01 7.943E+01 7.499E+01 7.079E+01 6.683E+01 6.310E+01 5.957E+01 5.623E+01 5.309E+01 5.012E+01 4.732E+01 4.467E+01 4.217E+01 3.981E+01 3.758E+01 3.548E+01 3.350E+01 3.162E+01 2.985E+01 2.818E+01 2.661E+01 2.512E+01 2.371E+01 2.239E+01 2.113E+01 1.995E+01 1.884E+01 1.778E+01 1.679E+01 1.585E+01 1.496E+01 1.413E+01 1.334E+01 1.259E+01 1.189E+01 1.122E+01 1.059E+01 1.000E+01 9.441E+00 8.913E+00 8.414E+00 7.943E+00 7.499E+00 7.079E+00 6.683E+00 6.310E+00 5.957E+00 5.623E+00 5.309E+00 5.012E+00 4.732E+00 4.467E+00 4.217E+00 3.981E+00 3.758E+00 3.548E+00 3.350E+00 3.162E+00 2.985E+00 2.818E+00 2.661E+00 2.512E+00 2.371E+00 2.239E+00 2.113E+00 1.995E+00 1.884E+00 1.778E+00 1.679E+00 1.585E+00 1.496E+00 1.413E+00 1.334E+00 1.259E+00 1.189E+00 1.122E+00 1.059E+00 1.000E+00 9.441E-01 8.913E-01 8.414E-01 7.943E-01 7.499E-01 7.079E-01 6.683E-01 6.310E-01 5.957E-01 5.623E-01 5.309E-01 5.012E-01 4.732E-01 4.467E-01 4.217E-01 3.981E-01 3.758E-01 3.548E-01 3.350E-01 3.162E-01 2.985E-01 2.818E-01 2.661E-01 2.512E-01 2.371E-01 2.239E-01 2.113E-01 1.995E-01 1.884E-01 1.778E-01 1.679E-01 1.585E-01 1.496E-01 1.413E-01 1.334E-01 1.259E-01 1.189E-01 1.122E-01 1.059E-01 1.000E-01 9.441E-02 8.913E-02 8.414E-02 7.943E-02 7.499E-02 7.079E-02 6.683E-02 6.310E-02 5.957E-02 5.623E-02 5.309E-02 5.012E-02 4.732E-02 4.467E-02 4.217E-02 3.981E-02 3.758E-02 3.548E-02 3.350E-02 3.162E-02 2.985E-02 2.818E-02 2.661E-02 2.512E-02 2.371E-02 2.239E-02 2.113E-02 1.995E-02 1.884E-02 1.778E-02 1.679E-02 1.585E-02 1.496E-02 1.413E-02 1.334E-02 1.259E-02 1.189E-02 1.122E-02 1.059E-02 1.000E-02 9.441E-03 8.913E-03 8.414E-03 7.943E-03 7.499E-03 7.079E-03 6.683E-03 6.310E-03 5.957E-03 5.623E-03 5.309E-03 5.012E-03 4.732E-03 4.467E-03 4.217E-03 3.981E-03 3.758E-03 3.548E-03 3.350E-03 3.162E-03 2.985E-03 2.818E-03 2.661E-03 2.512E-03 2.371E-03 2.239E-03 2.113E-03 1.995E-03 1.884E-03 1.778E-03 1.679E-03 1.585E-03 1.496E-03 1.413E-03 1.334E-03 1.259E-03 1.189E-03 1.122E-03 1.059E-03 1.000E-03